Folder: spectrometer_calibration/src/henke_model

Note: README.md
# STEAM Spectrometer Calibration Code
Python code to create calibration curves for Amptek CdTe (hard) and FastSDD (soft) X-ray spectrometers. This code has the following functions:

1. Creating calibration curves
2. Displaying calibrated spectra
3. Exporting `.csv` files of calibrated spectra

Data is stored in the STEAM Google Drive at --.

Display `README.md` using the following:
> !grip -b README.md

For issues with the code email Ravin Chowdhury at `rach1691@colorado.edu`.

File: polyimide_1_100Ang.dat
 501 lines : Polyimide transmission from Henke
 2 columns : Photon Wavelength (nm), Transmission
   0.10000      0.99978
   0.10186      0.99976
   0.10375      0.99975
   0.10568      0.99974
   0.10765      0.99972
   0.10965      0.99971
   0.11169      0.99969
   0.11376      0.99967
   0.11588      0.99965
   0.11803      0.99963
   0.12023      0.99961
   0.12246      0.99959
   0.12474      0.99957
   0.12706      0.99954
   0.12942      0.99951
   0.13183      0.99949
   0.13428      0.99946
   0.13677      0.99942
   0.13932      0.99939
   0.14191      0.99935
   0.14454      0.99932
   0.14723      0.99928
   0.14997      0.99923
   0.15276      0.99919
   0.15560      0.99914
   0.15849      0.99909
   0.16144      0.99904
   0.16444      0.99898
   0.16749      0.99892
   0.17061      0.99886
   0.17378      0.99879
   0.17701      0.99872
   0.18030      0.99864
   0.18365      0.99856
   0.18707      0.99848
   0.19055      0.99839
   0.19409      0.99830
   0.19770      0.99820
   0.20137      0.99809
   0.20512      0.99798
   0.20893      0.99786
   0.21281      0.99773
   0.21677      0.99760
   0.22080      0.99746
   0.22491      0.99731
   0.22909      0.99716
   0.23335      0.99699
   0.23768      0.99681
   0.24210      0.99663
   0.24660      0.99643
   0.25119      0.99622
   0.25586      0.99600
   0.26062      0.99577
   0.26546      0.99553
   0.27040      0.99527
   0.27542      0.99500
   0.28054      0.99471
   0.28576      0.99440
   0.29107      0.99408
   0.29648      0.99374
   0.30200      0.99338
   0.30761      0.99300
   0.31333      0.99259
   0.31915      0.99217
   0.32509      0.99172
   0.33113      0.99125
   0.33729      0.99075
   0.34356      0.99023
   0.34995      0.98967
   0.35645      0.98909
   0.36308      0.98847
   0.36983      0.98782
   0.37670      0.98714
   0.38371      0.98642
   0.39084      0.98566
   0.39811      0.98486
   0.40551      0.98401
   0.41305      0.98312
   0.42073      0.98218
   0.42855      0.98119
   0.43652      0.98015
   0.44463      0.97906
   0.45290      0.97790
   0.46132      0.97668
   0.46989      0.97540
   0.47863      0.97405
   0.48753      0.97263
   0.49659      0.97114
   0.50582      0.96956
   0.51523      0.96791
   0.52481      0.96616
   0.53456      0.96433
   0.54450      0.96240
   0.55463      0.96037
   0.56494      0.95824
   0.57544      0.95600
   0.58614      0.95364
   0.59704      0.95116
   0.60814      0.94856
   0.61944      0.94584
   0.63096      0.94299
   0.64269      0.93998
   0.65464      0.93681
   0.66681      0.93349
   0.67920      0.93000
   0.69183      0.92633
   0.70469      0.92248
   0.71779      0.91845
   0.73114      0.91426
   0.74473      0.90986
   0.75858      0.90524
   0.77268      0.90041
   0.78705      0.89534
   0.80168      0.89003
   0.81658      0.88446
   0.83176      0.87865
   0.84723      0.87261
   0.86298      0.86631
   0.87902      0.85973
   0.89536      0.85286
   0.91201      0.84567
   0.92897      0.83817
   0.94624      0.83035
   0.96383      0.82219
   0.98175      0.81370
    1.0000      0.80493
    1.0186      0.79586
    1.0375      0.78645
    1.0568      0.77667
    1.0765      0.76651
    1.0965      0.75597
    1.1169      0.74503
    1.1376      0.73368
    1.1588      0.72194
    1.1803      0.70979
    1.2023      0.69735
    1.2246      0.68462
    1.2474      0.67142
    1.2706      0.65780
    1.2942      0.64378
    1.3183      0.62941
    1.3428      0.61472
    1.3677      0.59995
    1.3932      0.58484
    1.4191      0.56937
    1.4454      0.55354
    1.4723      0.53728
    1.4997      0.52062
    1.5276      0.50364
    1.5560      0.48640
    1.5849      0.46894
    1.6144      0.45144
    1.6444      0.43388
    1.6749      0.41622
    1.7061      0.39846
    1.7378      0.38063
    1.7701      0.36367
    1.8030      0.34761
    1.8365      0.33126
    1.8707      0.31432
    1.9055      0.29723
    1.9409      0.28041
    1.9770      0.26403
    2.0137      0.24804
    2.0512      0.23234
    2.0893      0.21698
    2.1281      0.20197
    2.1677      0.18735
    2.2080      0.17314
    2.2491      0.15947
    2.2909      0.26969
    2.3335      0.25352
    2.3768      0.23764
    2.4210      0.22207
    2.4660      0.20686
    2.5119      0.19204
    2.5586      0.17769
    2.6062      0.16401
    2.6546      0.15083
    2.7040      0.13817
    2.7542      0.12606
    2.8054      0.11452
    2.8576      0.10358
    2.9107      0.93247E-01
    2.9648      0.83536E-01
    3.0200      0.74457E-01
    3.0761      0.91091E-01
    3.1333      0.81426E-01
    3.1915      0.72405E-01
    3.2509      0.64050E-01
    3.3113      0.56690E-01
    3.3729      0.50251E-01
    3.4356      0.44318E-01
    3.4995      0.38879E-01
    3.5645      0.33920E-01
    3.6308      0.29424E-01
    3.6983      0.25371E-01
    3.7670      0.21741E-01
    3.8371      0.18509E-01
    3.9084      0.15652E-01
    3.9811      0.13143E-01
    4.0551      0.10958E-01
    4.1305      0.90671E-02
    4.2073      0.74432E-02
    4.2855      0.60596E-02
    4.3652      0.67933
    4.4463      0.66503
    4.5290      0.65030
    4.6132      0.63514
    4.6989      0.61952
    4.7863      0.60344
    4.8753      0.58691
    4.9659      0.56994
    5.0582      0.55349
    5.1523      0.53786
    5.2481      0.52148
    5.3456      0.50444
    5.4450      0.48711
    5.5463      0.46954
    5.6494      0.45162
    5.7544      0.43325
    5.8614      0.41467
    5.9704      0.39596
    6.0814      0.37719
    6.1944      0.35839
    6.3096      0.33962
    6.4269      0.32092
    6.5464      0.30235
    6.6681      0.28399
    6.7920      0.26712
    6.9183      0.25217
    7.0469      0.23802
    7.1779      0.22412
    7.3114      0.21050
    7.4473      0.19718
    7.5858      0.18420
    7.7268      0.17164
    7.8705      0.15953
    8.0168      0.14783
    8.1658      0.13656
    8.3176      0.12573
    8.4723      0.11537
    8.6298      0.10547
    8.7902      0.96074E-01
    8.9536      0.87171E-01
    9.1201      0.78773E-01
    9.2897      0.70838E-01
    9.4624      0.63500E-01
    9.6383      0.56775E-01
    9.8175      0.50537E-01
    10.000      0.44773E-01